Summary
[Data Information]
Data is:,Measurement Data
Dataset Name:,RawData
Sample Name:,Grupo1_Desconhecida
Sample ID
Option
Analyst
Date/Time:,08/08/2023 04:24:18 PM
Comments
Parameter File Name:,Esfera de Integração.vspm
Report File Name
[Software Information]
Software Name:,LabSolutions UV-Vis
Version:,1.11
[Instrument Information]
Instrument Name:,UV-2600i
Instrument Type:,UV-2600 Series
Model (S/N):,UV-2600i (A12595900700)

Parameter
[Measurement]
Start:,800 nm
End:,200 nm
Data Interval:,1.0
Scan Speed:,High speed
Spectrum Type:,Absorbance
[Accessories]
Accessories:,None
[Advanced]
Slit Width:,5.0
Detector Unit:,External (2 Detector)
Light Source Switch Wavelength:,323
Detector Switch Wavelength:,830
S/R Switch:,Standard
Stair Correction:,ON
[Repeat]
Repeat Measurement:,OFF
[Post-processing]
Spectrum Transformation:,OFF
Data Processing Table:,OFF
Print:,OFF

Wavelength (nm),Absorbance
200.0,3.395
201.0,3.363
202.0,4.126
203.0,3.946
204.0,4.008
205.0,3.257
206.0,3.462
207.0,3.786
208.0,3.768
209.0,3.760
210.0,3.574
211.0,3.751
212.0,3.660
213.0,3.765
214.0,3.841
215.0,3.996
216.0,4.042
217.0,3.957
218.0,3.926
219.0,3.758
220.0,5.860
221.0,5.867
222.0,5.941
223.0,5.941
224.0,5.792
225.0,5.973
226.0,5.973
227.0,8.141
228.0,7.872
229.0,6.013
230.0,3.920
231.0,4.596
232.0,4.391
233.0,6.484
234.0,6.287
235.0,6.385
236.0,4.333
237.0,3.993
238.0,4.055
239.0,4.101
240.0,6.090
241.0,6.209
242.0,6.166
243.0,6.166
244.0,6.214
245.0,6.341
246.0,6.341
247.0,6.200
248.0,6.044
249.0,4.583
250.0,6.461
251.0,6.643
252.0,6.191
253.0,4.322
254.0,4.403
255.0,4.489
256.0,4.383
257.0,4.293
258.0,4.231
259.0,4.390
260.0,4.555
261.0,4.432
262.0,4.237
263.0,4.138
264.0,4.302
265.0,4.341
266.0,4.210
267.0,4.177
268.0,4.129
269.0,4.115
270.0,4.052
271.0,4.182
272.0,4.233
273.0,4.159
274.0,4.016
275.0,4.099
276.0,4.103
277.0,4.071
278.0,3.895
279.0,3.878
280.0,4.015
281.0,3.898
282.0,3.863
283.0,3.695
284.0,3.692
285.0,3.602
286.0,3.472
287.0,3.424
288.0,3.359
289.0,3.338
290.0,3.258
291.0,3.180
292.0,3.135
293.0,3.089
294.0,3.036
295.0,2.956
296.0,2.881
297.0,2.835
298.0,2.778
299.0,2.744
300.0,2.692
301.0,2.663
302.0,2.628
303.0,2.602
304.0,2.570
305.0,2.542
306.0,2.518
307.0,2.497
308.0,2.472
309.0,2.445
310.0,2.421
311.0,2.396
312.0,2.372
313.0,2.350
314.0,2.330
315.0,2.312
316.0,2.290
317.0,2.265
318.0,2.238
319.0,2.209
320.0,2.181
321.0,2.155
322.0,2.129
323.0,2.103
324.0,2.076
325.0,2.053
326.0,2.030
327.0,2.006
328.0,1.985
329.0,1.964
330.0,1.949
331.0,1.931
332.0,1.916
333.0,1.897
334.0,1.884
335.0,1.871
336.0,1.866
337.0,1.851
338.0,1.842
339.0,1.831
340.0,1.825
341.0,1.818
342.0,1.811
343.0,1.807
344.0,1.804
345.0,1.802
346.0,1.798
347.0,1.796
348.0,1.793
349.0,1.792
350.0,1.790
351.0,1.786
352.0,1.783
353.0,1.783
354.0,1.785
355.0,1.782
356.0,1.779
357.0,1.776
358.0,1.775
359.0,1.775
360.0,1.774
361.0,1.774
362.0,1.774
363.0,1.776
364.0,1.778
365.0,1.779
366.0,1.780
367.0,1.783
368.0,1.785
369.0,1.790
370.0,1.793
371.0,1.797
372.0,1.800
373.0,1.804
374.0,1.811
375.0,1.815
376.0,1.821
377.0,1.825
378.0,1.830
379.0,1.834
380.0,1.839
381.0,1.843
382.0,1.847
383.0,1.851
384.0,1.856
385.0,1.859
386.0,1.862
387.0,1.863
388.0,1.865
389.0,1.866
390.0,1.867
391.0,1.866
392.0,1.864
393.0,1.861
394.0,1.857
395.0,1.852
396.0,1.848
397.0,1.844
398.0,1.841
399.0,1.835
400.0,1.828
401.0,1.822
402.0,1.815
403.0,1.808
404.0,1.800
405.0,1.790
406.0,1.782
407.0,1.771
408.0,1.761
409.0,1.752
410.0,1.741
411.0,1.731
412.0,1.720
413.0,1.711
414.0,1.701
415.0,1.691
416.0,1.679
417.0,1.669
418.0,1.659
419.0,1.648
420.0,1.637
421.0,1.627
422.0,1.618
423.0,1.608
424.0,1.598
425.0,1.587
426.0,1.576
427.0,1.565
428.0,1.556
429.0,1.546
430.0,1.535
431.0,1.523
432.0,1.512
433.0,1.500
434.0,1.490
435.0,1.478
436.0,1.466
437.0,1.453
438.0,1.441
439.0,1.429
440.0,1.418
441.0,1.406
442.0,1.393
443.0,1.380
444.0,1.367
445.0,1.354
446.0,1.341
447.0,1.328
448.0,1.316
449.0,1.304
450.0,1.291
451.0,1.278
452.0,1.265
453.0,1.252
454.0,1.240
455.0,1.228
456.0,1.215
457.0,1.202
458.0,1.190
459.0,1.179
460.0,1.166
461.0,1.154
462.0,1.141
463.0,1.129
464.0,1.118
465.0,1.106
466.0,1.095
467.0,1.084
468.0,1.073
469.0,1.062
470.0,1.051
471.0,1.041
472.0,1.031
473.0,1.021
474.0,1.010
475.0,1.000
476.0,0.990
477.0,0.980
478.0,0.971
479.0,0.961
480.0,0.952
481.0,0.942
482.0,0.934
483.0,0.925
484.0,0.916
485.0,0.908
486.0,0.900
487.0,0.892
488.0,0.883
489.0,0.874
490.0,0.866
491.0,0.858
492.0,0.850
493.0,0.842
494.0,0.835
495.0,0.827
496.0,0.820
497.0,0.812
498.0,0.805
499.0,0.798
500.0,0.791
501.0,0.784
502.0,0.778
503.0,0.771
504.0,0.765
505.0,0.758
506.0,0.752
507.0,0.747
508.0,0.742
509.0,0.737
510.0,0.733
511.0,0.728
512.0,0.723
513.0,0.718
514.0,0.714
515.0,0.709
516.0,0.705
517.0,0.701
518.0,0.697
519.0,0.692
520.0,0.687
521.0,0.683
522.0,0.678
523.0,0.673
524.0,0.668
525.0,0.664
526.0,0.659
527.0,0.654
528.0,0.649
529.0,0.643
530.0,0.637
531.0,0.631
532.0,0.625
533.0,0.620
534.0,0.613
535.0,0.606
536.0,0.599
537.0,0.592
538.0,0.585
539.0,0.577
540.0,0.569
541.0,0.561
542.0,0.552
543.0,0.544
544.0,0.535
545.0,0.526
546.0,0.516
547.0,0.506
548.0,0.496
549.0,0.486
550.0,0.476
551.0,0.466
552.0,0.457
553.0,0.447
554.0,0.437
555.0,0.428
556.0,0.419
557.0,0.410
558.0,0.401
559.0,0.393
560.0,0.385
561.0,0.378
562.0,0.370
563.0,0.363
564.0,0.357
565.0,0.351
566.0,0.346
567.0,0.341
568.0,0.337
569.0,0.333
570.0,0.329
571.0,0.327
572.0,0.324
573.0,0.322
574.0,0.320
575.0,0.318
576.0,0.318
577.0,0.317
578.0,0.316
579.0,0.315
580.0,0.315
581.0,0.315
582.0,0.314
583.0,0.314
584.0,0.314
585.0,0.314
586.0,0.314
587.0,0.314
588.0,0.314
589.0,0.314
590.0,0.313
591.0,0.313
592.0,0.313
593.0,0.312
594.0,0.312
595.0,0.312
596.0,0.311
597.0,0.310
598.0,0.310
599.0,0.309
600.0,0.308
601.0,0.307
602.0,0.306
603.0,0.305
604.0,0.304
605.0,0.302
606.0,0.301
607.0,0.299
608.0,0.298
609.0,0.296
610.0,0.295
611.0,0.293
612.0,0.292
613.0,0.289
614.0,0.288
615.0,0.286
616.0,0.284
617.0,0.282
618.0,0.280
619.0,0.278
620.0,0.276
621.0,0.274
622.0,0.273
623.0,0.271
624.0,0.269
625.0,0.266
626.0,0.265
627.0,0.263
628.0,0.262
629.0,0.260
630.0,0.259
631.0,0.257
632.0,0.256
633.0,0.254
634.0,0.252
635.0,0.251
636.0,0.250
637.0,0.249
638.0,0.247
639.0,0.246
640.0,0.246
641.0,0.245
642.0,0.244
643.0,0.244
644.0,0.243
645.0,0.243
646.0,0.243
647.0,0.242
648.0,0.242
649.0,0.242
650.0,0.242
651.0,0.243
652.0,0.243
653.0,0.243
654.0,0.244
655.0,0.245
656.0,0.245
657.0,0.246
658.0,0.247
659.0,0.248
660.0,0.249
661.0,0.250
662.0,0.251
663.0,0.252
664.0,0.253
665.0,0.255
666.0,0.256
667.0,0.258
668.0,0.260
669.0,0.261
670.0,0.263
671.0,0.264
672.0,0.266
673.0,0.268
674.0,0.270
675.0,0.272
676.0,0.274
677.0,0.276
678.0,0.277
679.0,0.279
680.0,0.281
681.0,0.283
682.0,0.285
683.0,0.287
684.0,0.289
685.0,0.292
686.0,0.293
687.0,0.295
688.0,0.297
689.0,0.299
690.0,0.301
691.0,0.303
692.0,0.305
693.0,0.307
694.0,0.309
695.0,0.311
696.0,0.313
697.0,0.315
698.0,0.317
699.0,0.318
700.0,0.319
701.0,0.321
702.0,0.322
703.0,0.324
704.0,0.326
705.0,0.327
706.0,0.328
707.0,0.330
708.0,0.331
709.0,0.333
710.0,0.334
711.0,0.335
712.0,0.336
713.0,0.337
714.0,0.338
715.0,0.339
716.0,0.340
717.0,0.341
718.0,0.341
719.0,0.342
720.0,0.342
721.0,0.343
722.0,0.344
723.0,0.344
724.0,0.344
725.0,0.345
726.0,0.345
727.0,0.345
728.0,0.346
729.0,0.346
730.0,0.346
731.0,0.346
732.0,0.346
733.0,0.346
734.0,0.346
735.0,0.346
736.0,0.346
737.0,0.345
738.0,0.345
739.0,0.344
740.0,0.344
741.0,0.343
742.0,0.342
743.0,0.342
744.0,0.342
745.0,0.341
746.0,0.341
747.0,0.341
748.0,0.340
749.0,0.338
750.0,0.337
751.0,0.336
752.0,0.336
753.0,0.335
754.0,0.334
755.0,0.333
756.0,0.332
757.0,0.331
758.0,0.330
759.0,0.328
760.0,0.327
761.0,0.326
762.0,0.324
763.0,0.323
764.0,0.321
765.0,0.320
766.0,0.319
767.0,0.317
768.0,0.315
769.0,0.314
770.0,0.313
771.0,0.311
772.0,0.310
773.0,0.308
774.0,0.306
775.0,0.304
776.0,0.303
777.0,0.301
778.0,0.300
779.0,0.298
780.0,0.297
781.0,0.296
782.0,0.294
783.0,0.293
784.0,0.290
785.0,0.289
786.0,0.286
787.0,0.285
788.0,0.283
789.0,0.282
790.0,0.279
791.0,0.278
792.0,0.276
793.0,0.274
794.0,0.273
795.0,0.271
796.0,0.270
797.0,0.268
798.0,0.266
799.0,0.265
800.0,0.264
